Trial	Beat	Sentence	Sentence_extraction	Congruency	Validity	Sensitivity	Probe	Response	Accuracy	RT
1	binary	['f', '*', 'n', '+', 'd', '*', 'p']	*+*	incongruent	False	sensitive	f * d + n * p	d	0	4.9876931339968
2	binary	['h', '*', 'm', '+', 'a', '*', 'v']	*+*	congruent	False	sensitive	v * m + a * h	n	1	2.2366232959902845
3	binary	['m', '+', 's', '*', 'd', '+', 'j']	+*+	congruent	True	sensitive	d + j * m + s	d	0	4.082582081027795
4	binary	['a', '+', 'q', '*', 'g', '+', 'j']	+*+	incongruent	True	insensitive	j + g * q + a	y	1	3.1689152030157857
5	binary	['h', '*', 'f', '+', 'g', '*', 't']	*+*	incongruent	True	sensitive	f * h + t * g	y	1	1.3210793299949728
6	binary	['w', '*', 'c', '+', 'h', '*', 'y']	*+*	incongruent	False	sensitive	w * h + c * y	n	1	4.5703457909985445
7	binary	['w', '*', 'f', '+', 'j', '*', 'x']	*+*	incongruent	False	sensitive	x * f + j * w	y	0	8.736091446015052
8	binary	['v', '+', 'f', '*', 'e', '+', 'r']	+*+	incongruent	True	insensitive	v + f * e + r	y	1	1.2862273450009525
9	binary	['a', '+', 'w', '*', 'z', '+', 'f']	+*+	incongruent	True	sensitive	w + a * f + z	n	0	3.604335310985334
10	binary	['k', '+', 'g', '*', 'j', '+', 'a']	+*+	congruent	True	insensitive	k + g * j + a	y	1	1.553351146983914
11	binary	['x', '*', 'c', '+', 'u', '*', 'e']	*+*	congruent	False	insensitive	u * x + e * c	n	1	2.936765947029926
12	binary	['w', '*', 'd', '+', 'a', '*', 'c']	*+*	congruent	True	insensitive	w * d + a * c	y	1	1.2871684260317124
13	binary	['q', '*', 'm', '+', 'r', '*', 'y']	*+*	congruent	True	insensitive	y * r + m * q	n	0	1.7364555459935218
14	binary	['a', '*', 'f', '+', 'c', '*', 'd']	*+*	congruent	False	sensitive	a * c + f * d	n	1	1.186784424004145
15	binary	['e', '*', 'u', '+', 'q', '*', 'n']	*+*	incongruent	True	insensitive	n * q + u * e	d	0	2.5696789830108173
16	binary	['m', '*', 'q', '+', 'v', '*', 'z']	*+*	congruent	False	insensitive	v * m + z * q	n	1	1.5183219750178978
17	binary	['c', '*', 'h', '+', 'x', '*', 'q']	*+*	incongruent	True	insensitive	q * x + h * c	y	1	1.76998454896966
18	binary	['w', '*', 'g', '+', 'p', '*', 't']	*+*	incongruent	True	sensitive	g * w + t * p	y	1	1.2159918589750305
19	binary	['x', '*', 'f', '+', 'r', '*', 'j']	*+*	incongruent	True	sensitive	r * j + x * f	y	1	1.6043477930361405
20	binary	['x', '*', 'b', '+', 'a', '*', 'c']	*+*	congruent	False	sensitive	c * b + a * x	n	1	2.554159682011232
21	binary	['x', '+', 'j', '*', 'k', '+', 'h']	+*+	incongruent	False	insensitive	k + x * h + j	d	0	2.8694641800248064
22	binary	['n', '+', 'u', '*', 'g', '+', 'j']	+*+	congruent	True	sensitive	u + n * j + g	n	0	2.021551608981099
23	binary	['a', '*', 'j', '+', 'k', '*', 'x']	*+*	congruent	False	insensitive	k * a + x * j	n	1	1.3039246400003321
24	binary	['j', '+', 'n', '*', 'm', '+', 'f']	+*+	congruent	True	sensitive	j + m * n + f	n	0	1.8366625510388985
25	binary	['b', '+', 'v', '*', 'k', '+', 'y']	+*+	incongruent	True	insensitive	b + v * k + y	y	1	3.00303378602257
26	binary	['s', '*', 'n', '+', 'j', '*', 'a']	*+*	congruent	True	sensitive	j * a + s * n	y	1	1.4868397889658809
27	binary	['r', '+', 'v', '*', 'h', '+', 't']	+*+	incongruent	True	sensitive	h + t * r + v	d	0	1.654324414965231
28	binary	['n', '*', 'v', '+', 'c', '*', 'x']	*+*	incongruent	True	sensitive	c * x + n * v	y	1	5.670032697031274
29	binary	['k', '+', 'r', '*', 'd', '+', 'f']	+*+	congruent	True	sensitive	f + r * d + k	n	0	1.5368940070038661
30	binary	['r', '+', 'b', '*', 'g', '+', 'x']	+*+	incongruent	True	sensitive	r + g * b + x	n	0	2.3189480639994144
31	binary	['d', '*', 'v', '+', 't', '*', 'n']	*+*	congruent	False	insensitive	v * t + d * n	n	1	1.385640875028912
32	binary	['j', '*', 's', '+', 'v', '*', 'm']	*+*	congruent	True	insensitive	j * s + v * m	y	1	2.518978859006893
33	binary	['h', '+', 'r', '*', 'j', '+', 'w']	+*+	incongruent	False	insensitive	j + h * w + r	n	1	2.3194435670156963
34	binary	['d', '+', 'q', '*', 'c', '+', 'p']	+*+	congruent	False	insensitive	c + d * p + q	y	0	3.170537356985733
35	binary	['p', '*', 'n', '+', 'h', '*', 'x']	*+*	congruent	True	insensitive	p * n + h * x	y	1	1.3692355070379563
36	binary	['x', '*', 'g', '+', 's', '*', 'e']	*+*	congruent	True	sensitive	g * x + e * s	n	0	1.970193981018383
37	binary	['v', '+', 'n', '*', 'b', '+', 'k']	+*+	congruent	True	sensitive	n + v * k + b	y	1	2.0533773800125346
38	binary	['q', '+', 'b', '*', 't', '+', 'a']	+*+	incongruent	False	insensitive	b + t * q + a	y	0	1.603239179996308
39	binary	['x', '+', 'r', '*', 'e', '+', 'm']	+*+	incongruent	True	sensitive	m + r * e + x	y	1	0.8367027760250494
40	binary	['q', '*', 'm', '+', 'y', '*', 'a']	*+*	incongruent	False	insensitive	y * q + a * m	n	1	3.6537041409756057
41	binary	['v', '*', 'a', '+', 'b', '*', 'u']	*+*	incongruent	False	insensitive	a * b + v * u	n	1	3.886681093950756
42	binary	['a', '*', 't', '+', 'c', '*', 'd']	*+*	incongruent	False	sensitive	d * t + c * a	n	1	2.2203936020378023
43	binary	['x', '*', 'v', '+', 'u', '*', 'w']	*+*	congruent	True	sensitive	u * w + x * v	y	1	1.3032627060310915
44	binary	['u', '*', 'c', '+', 'g', '*', 'w']	*+*	incongruent	True	insensitive	u * c + g * w	y	1	0.9034965230384842
45	binary	['y', '+', 'h', '*', 'u', '+', 'w']	+*+	congruent	True	sensitive	h + y * w + u	n	0	1.5022773729870096
46	binary	['d', '+', 'j', '*', 'n', '+', 'h']	+*+	congruent	True	insensitive	h + n * j + d	n	0	1.2065096140140668
47	binary	['w', '+', 'x', '*', 'v', '+', 'b']	+*+	incongruent	True	insensitive	w + x * v + b	d	0	1.4501608739956282
48	binary	['n', '*', 'z', '+', 'f', '*', 'u']	*+*	incongruent	True	insensitive	u * f + z * n	y	1	3.6827209029579535
49	binary	['y', '*', 'f', '+', 'w', '*', 'h']	*+*	congruent	True	sensitive	w * h + y * f	y	1	1.7849627360119484
50	binary	['f', '+', 'x', '*', 'y', '+', 'c']	+*+	incongruent	False	insensitive	x + y * f + c	n	1	2.502791965031065
51	binary	['g', '*', 'h', '+', 'e', '*', 'm']	*+*	incongruent	False	insensitive	h * e + g * m	n	1	2.053993187029846
52	binary	['p', '+', 'k', '*', 'j', '+', 'b']	+*+	congruent	True	sensitive	p + j * k + b	y	1	1.1209073679638095
53	binary	['h', '+', 'c', '*', 'd', '+', 'u']	+*+	incongruent	True	insensitive	u + d * c + h	y	1	1.2374216829775833
54	binary	['y', '+', 'r', '*', 'j', '+', 'd']	+*+	congruent	True	sensitive	j + d * y + r	n	0	1.9865254560136236
55	binary	['k', '*', 'b', '+', 's', '*', 'z']	*+*	congruent	True	insensitive	z * s + b * k	y	1	1.7695241670007817
56	binary	['e', '*', 'm', '+', 'v', '*', 'j']	*+*	incongruent	True	sensitive	m * e + j * v	y	1	1.420372435997706
57	binary	['u', '*', 'h', '+', 'c', '*', 'k']	*+*	congruent	True	sensitive	h * u + k * c	y	1	1.5364451379864477
58	binary	['h', '*', 'q', '+', 'b', '*', 'a']	*+*	congruent	False	sensitive	h * b + q * a	n	1	2.853444968990516
59	binary	['b', '*', 'f', '+', 'n', '*', 's']	*+*	incongruent	False	insensitive	f * n + b * s	n	1	2.5547264480264857
60	binary	['n', '*', 'u', '+', 'j', '*', 'k']	*+*	incongruent	True	insensitive	n * u + j * k	y	1	3.919177575968206
61	binary	['k', '+', 'n', '*', 'p', '+', 'r']	+*+	congruent	True	sensitive	k + p * n + r	y	1	2.9201668410096318
62	binary	['r', '*', 'p', '+', 'm', '*', 'j']	*+*	incongruent	False	sensitive	r * m + p * j	n	1	3.0528013670118526
63	binary	['b', '+', 'r', '*', 'v', '+', 'z']	+*+	congruent	True	insensitive	b + r * v + z	n	0	0.9831554599804804
64	binary	['r', '+', 'v', '*', 'd', '+', 'z']	+*+	incongruent	True	sensitive	r + d * v + z	y	1	1.203788305982016
65	binary	['w', '*', 't', '+', 'k', '*', 'f']	*+*	congruent	False	insensitive	t * k + w * f	n	1	1.770450720039662
66	binary	['b', '+', 'v', '*', 'a', '+', 'k']	+*+	incongruent	True	sensitive	b + a * v + k	y	1	0.8357736069592647
67	binary	['m', '+', 'p', '*', 't', '+', 'q']	+*+	incongruent	True	sensitive	q + p * t + m	y	1	1.7705626789829694
68	binary	['a', '*', 'j', '+', 'q', '*', 's']	*+*	incongruent	False	sensitive	s * j + q * a	n	1	1.970886894967407
69	binary	['z', '*', 'x', '+', 'v', '*', 'y']	*+*	congruent	False	sensitive	z * v + x * y	n	1	3.3023621500469744
70	binary	['r', '+', 't', '*', 'p', '+', 'g']	+*+	congruent	True	sensitive	g + t * p + r	y	1	0.8535649569821544
71	binary	['n', '+', 'c', '*', 'd', '+', 'j']	+*+	incongruent	True	sensitive	d + j * n + c	n	0	3.7694648830220103
72	binary	['m', '+', 'q', '*', 'f', '+', 'h']	+*+	congruent	False	insensitive	f + m * h + q	n	1	0.8869760879897512
73	binary	['t', '+', 'y', '*', 'u', '+', 'c']	+*+	incongruent	True	sensitive	u + c * t + y	n	0	1.5021951799863018
74	binary	['d', '*', 'c', '+', 'y', '*', 'm']	*+*	congruent	True	insensitive	m * y + c * d	y	1	0.820679577998817
75	binary	['j', '+', 'k', '*', 'z', '+', 'f']	+*+	incongruent	True	sensitive	k + j * f + z	d	0	1.1331307479995303
76	binary	['x', '*', 'b', '+', 'a', '*', 'h']	*+*	incongruent	False	insensitive	a * x + h * b	n	1	2.0993363379966468
77	binary	['j', '*', 'm', '+', 'w', '*', 'y']	*+*	congruent	False	insensitive	m * w + j * y	n	1	0.9865703409886919
78	binary	['d', '*', 'c', '+', 'j', '*', 'n']	*+*	incongruent	False	insensitive	j * d + n * c	n	1	1.9861475409707054
79	binary	['u', '+', 'd', '*', 'p', '+', 'r']	+*+	incongruent	True	insensitive	r + p * d + u	y	1	1.737002101028338
80	binary	['y', '+', 'g', '*', 'p', '+', 'r']	+*+	incongruent	True	sensitive	r + g * p + y	y	1	1.0693420459865592
81	binary	['w', '+', 'y', '*', 'u', '+', 'r']	+*+	congruent	False	insensitive	u + w * r + y	n	1	1.9692355199949816
82	binary	['y', '+', 'v', '*', 'a', '+', 'm']	+*+	incongruent	False	insensitive	v + a * y + m	n	1	2.0030917419935577
83	binary	['p', '+', 'a', '*', 'y', '+', 's']	+*+	congruent	True	insensitive	s + y * a + p	y	1	1.032801442022901
84	binary	['z', '+', 'c', '*', 'h', '+', 'f']	+*+	congruent	True	sensitive	h + f * z + c	y	1	0.63320531998761
85	binary	['h', '*', 'n', '+', 'f', '*', 'e']	*+*	incongruent	True	sensitive	f * e + h * n	y	1	0.7538613980286755
86	binary	['w', '*', 'g', '+', 'm', '*', 'j']	*+*	congruent	True	sensitive	g * w + j * m	y	1	1.869016601005569
87	binary	['a', '+', 'b', '*', 'x', '+', 'p']	+*+	congruent	False	insensitive	b + x * a + p	n	1	0.8530376680428162
88	binary	['c', '+', 'q', '*', 'd', '+', 's']	+*+	congruent	True	insensitive	c + q * d + s	y	1	1.0533790080226026
89	binary	['q', '+', 'k', '*', 'a', '+', 'h']	+*+	congruent	True	insensitive	h + a * k + q	y	1	0.6198979999753647
90	binary	['d', '*', 'f', '+', 'x', '*', 'e']	*+*	congruent	False	sensitive	e * f + x * d	n	1	2.0210960200056434
91	binary	['m', '+', 'n', '*', 'j', '+', 'e']	+*+	congruent	False	insensitive	n + j * m + e	n	1	0.8353702290332876
92	binary	['x', '+', 'r', '*', 'w', '+', 'g']	+*+	congruent	False	insensitive	r + w * x + g	n	1	0.9190657870494761
93	binary	['n', '*', 's', '+', 'u', '*', 'k']	*+*	incongruent	True	insensitive	n * s + u * k	y	1	1.0203410050016828
94	binary	['h', '+', 'u', '*', 'f', '+', 'z']	+*+	incongruent	False	insensitive	f + h * z + u	d	0	1.7371849740156904
95	binary	['m', '+', 'e', '*', 'g', '+', 'f']	+*+	incongruent	True	sensitive	e + m * f + g	n	0	1.7704738299944438
96	binary	['v', '+', 'z', '*', 'b', '+', 't']	+*+	congruent	True	sensitive	t + z * b + v	y	1	1.053306771966163
